Folder: deconvolution_app/data (part 3)

File: NH4_deconvoluated_TGA_diff_evo.csv
temperature,rate_5,rate_3,rate_10,rate_3_diff,rate_5_diff,rate_10_diff,rate_3_diff_reaction_0,rate_3_diff_reaction_1,rate_3_diff_cumulative,rate_3_diff_diff,rate_5_diff_reaction_0,rate_5_diff_reaction_1,rate_5_diff_cumulative,rate_10_diff_reaction_0,rate_10_diff_reaction_1,rate_10_diff_cumulative,rate_10_diff_diff
31.23291,100.48,99.4638,99.6231,0.0,0.0,0.0,6.97385e-121,4.58915e-32,4.58915e-32,-0.0,2.38869e-112,1.95773e-22,1.95773e-22,1.02051e-122,1.69705e-25,1.69705e-25,-0.0
39.82715,100.509,99.482,99.68785,0.0,0.0,0.0,1.8162e-117,2.79952e-31,2.79952e-31,-0.0,2.17532e-109,6.07963e-22,6.07963e-22,9.31346e-120,5.76798e-25,5.76798e-25,-0.0
48.42138,100.513,99.48926,99.69786,0.0,0.0,0.0,4.7299e-114,1.70779e-30,1.70779e-30,-0.0,1.981e-106,1.88799e-21,1.88799e-21,8.49963e-117,1.96043e-24,1.96043e-24,-0.0
57.01562,100.516,99.49626,99.69783,0.0,0.0,0.0,1.23181e-110,1.0418e-29,1.0418e-29,-0.0,1.80405e-103,5.86305e-21,5.86305e-21,7.75698e-114,6.66318e-24,6.66318e-24,-0.0
65.60985,100.5095,99.51352,99.71066,0.0,0.0,0.0,3.20798e-107,6.3553e-29,6.3553e-29,-0.0,1.6429e-100,1.82074e-20,1.82074e-20,7.07916e-111,2.2647e-23,2.2647e-23,-0.0
74.20409,100.505,99.52628,99.69736,0.0,0.0,0.0,8.35457e-104,3.87693e-28,3.87693e-28,-0.0,1.49615e-97,5.65419e-20,5.65419e-20,6.46062e-108,7.69731e-23,7.69731e-23,-0.0
82.79832,100.503,99.51935,99.70477,0.0,0.0,0.0,2.17576e-100,2.36504e-27,2.36504e-27,-0.0,1.3625e-94,1.75588e-19,1.75588e-19,5.89608e-105,2.61618e-22,2.61618e-22,-0.0
91.39256,100.511,99.52902,99.72365,0.0,0.0,0.0,5.66636e-97,1.44274e-26,1.44274e-26,-0.0,1.2408e-91,5.45277e-19,5.45277e-19,5.38091e-102,8.89195e-22,8.89195e-22,-0.0
99.98679,100.523,99.52902,99.71651,0.0,0.0,0.0,1.47568e-93,8.80116e-26,8.80116e-26,-0.0,1.12995e-88,1.69333e-18,1.69333e-18,4.91072e-99,3.02222e-21,3.02222e-21,-0.0
108.581,100.529,99.52291,99.71697,0.0,0.0,0.0,3.84312e-90,5.36897e-25,5.36897e-25,-0.0,1.02902e-85,5.25853e-18,5.25853e-18,4.48164e-96,1.0272e-20,1.0272e-20,-0.0
117.175,100.5086,99.5441,99.7245,0.0,0.0,0.0,1.00086e-86,3.27523e-24,3.27523e-24,-0.0,9.37101e-83,1.633e-17,1.633e-17,4.09003e-93,3.49127e-20,3.49127e-20,-0.0
125.7695,100.493,99.50937,99.73205,0.0,0.0,0.0,2.60653e-83,1.99799e-23,1.99799e-23,-0.0,8.53397e-80,5.0712e-17,5.0712e-17,3.73266e-90,1.18662e-19,1.18662e-19,-0.0
134.364,100.479,99.50668,99.72846,0.0,0.0,0.0,6.78815e-80,1.21883e-22,1.21883e-22,-0.0,7.77162e-77,1.57483e-16,1.57483e-16,3.4065e-87,4.03312e-19,4.03312e-19,-0.0
142.958,100.462,99.50573,99.7383,0.0,0.0,0.0,1.76784e-76,7.43523e-22,7.43523e-22,-0.0,7.07744e-74,4.89055e-16,4.89055e-16,3.10885e-84,1.37079e-18,1.37079e-18,-0.0
151.5522,100.447,99.49428,99.727,0.0,0.0,0.0,4.60396e-73,4.53571e-21,4.53571e-21,-0.0,6.44521e-71,1.51873e-15,1.51873e-15,2.8372e-81,4.65906e-18,4.65906e-18,-0.0
160.146,100.435,99.47101,99.72909,0.0,0.0,0.0,1.19901e-69,2.76692e-20,2.76692e-20,-0.0,5.86951e-68,4.71634e-15,4.71634e-15,2.5893e-78,1.58353e-17,1.58353e-17,-0.0
168.741,100.391,99.40031,99.72825,0.0,0.0,0.0,3.12256e-66,1.6879e-19,1.6879e-19,-0.0,5.34518e-65,1.46463e-14,1.46463e-14,2.36304e-75,5.38215e-17,5.38215e-17,-0.0
177.335,100.34,99.31935,99.7086,0.0,0.0,0.0,8.1321e-63,1.02967e-18,1.02967e-18,-0.0,4.86774e-62,4.54833e-14,4.54833e-14,2.15657e-72,1.8293e-16,1.8293e-16,-0.0
185.929,100.271,99.17912,99.68891,0.0,0.0,0.0,2.11783e-59,6.28129e-18,6.28129e-18,-0.0,4.4329e-59,1.41246e-13,1.41246e-13,1.96812e-69,6.21747e-16,6.21747e-16,-0.0
194.523,100.147,98.98224,99.64122,0.0,0.0,0.0,5.51547e-56,3.83177e-17,3.83177e-17,-0.0,4.03694e-56,4.3863e-13,4.3863e-13,1.79616e-66,2.11321e-15,2.11321e-15,-0.0
203.118,99.97859,98.67028,99.5692,0.0,0.0,0.0,1.43638e-52,2.33749e-16,2.33749e-16,-0.0,3.67632e-53,1.36214e-12,1.36214e-12,1.63921e-63,7.18243e-15,7.18243e-15,-0.0
211.712,99.7319,98.2089,99.47152,0.0,0.0,0.0,3.74078e-49,1.42594e-15,1.42594e-15,-0.0,3.34794e-50,4.23005e-12,4.23005e-12,1.49598e-60,2.44118e-14,2.44118e-14,-0.0
220.306,99.37386,97.54188,99.33066,0.0,0.0,0.0,9.74205e-46,8.69865e-15,8.69865e-15,-0.0,3.04887e-47,1.31362e-11,1.31362e-11,1.36526e-57,8.29715e-14,8.29715e-14,-0.0
228.9,98.83641,96.57285,99.0969,0.0,0.0,0.0,2.53713e-42,5.30644e-14,5.30644e-14,-0.0,2.77653e-44,4.07936e-11,4.07936e-11,1.24597e-54,2.82006e-13,2.82006e-13,-0.0
237.495,98.08414,95.22173,98.75559,0.0,0.0,0.0,6.6074e-39,3.23708e-13,3.23708e-13,-0.0,2.52851e-41,1.26682e-10,1.26682e-10,1.1371e-51,9.58488e-13,9.58488e-13,-0.0
246.089,96.99447,93.32068,98.23973,0.0,0.0,0.0,1.72077e-35,1.97472e-12,1.97472e-12,-0.0,2.30265e-38,3.93404e-10,3.93404e-10,1.03774e-48,3.25774e-12,3.25774e-12,-0.0
254.683,95.56277,90.72334,97.58442,0.0,0.0,0.0,4.48136e-32,1.20464e-11,1.20464e-11,-0.0,2.09696e-35,1.22169e-09,1.22169e-09,9.47062e-46,1.10725e-11,1.10725e-11,-0.0
263.277,93.55473,87.15192,96.63779,0.0,0.0,0.0,1.16708e-28,7.34864e-11,7.34864e-11,-0.0,1.90965e-32,3.7939e-09,3.7939e-09,8.64312e-43,3.76334e-11,3.76334e-11,-0.0
271.871,90.83495,82.37462,95.31158,0.0,0.0,0.0,3.03942e-25,4.48288e-10,4.48288e-10,-0.0,1.73906e-29,1.17817e-08,1.17817e-08,7.88787e-40,1.27909e-10,1.27909e-10,-0.0
280.466,87.28274,76.13818,93.54754,0.0,0.0,0.0,7.91556e-22,2.73469e-09,2.73469e-09,-0.0,1.58372e-26,3.65875e-08,3.65875e-08,7.19867e-37,4.34742e-10,4.34742e-10,-0.0
289.06,82.58543,67.84064,91.21644,0.0,0.0,0.0,2.06144e-18,1.66824e-08,1.66824e-08,-0.0,1.44225e-23,1.1362e-07,1.1362e-07,6.56963e-34,1.47761e-09,1.47761e-09,-0.0
297.6542,76.45059,57.34981,88.08849,0.0,0.0,0.0,5.36861e-15,1.01768e-07,1.01768e-07,-0.0,1.31342e-20,3.5284e-07,3.5284e-07,5.99561e-31,5.02214e-09,5.02214e-09,-0.0
306.248,68.58813,44.14667,84.06622,0.0,0.0,0.0,1.39814e-11,6.2081e-07,6.20824e-07,-0.0,1.19609e-17,1.09571e-06,1.09571e-06,5.4717e-28,1.70694e-08,1.70694e-08,-0.0
314.843,58.72223,28.86107,78.86562,0.0,0.0,0.0,3.64117e-08,3.78704e-06,3.82345e-06,-0.0,1.08926e-14,3.4026e-06,3.4026e-06,4.99359e-25,5.80158e-08,5.80158e-08,-0.0
323.4369,46.79411,13.35642,72.23983,0.0,0.0,0.0,9.47606e-05,2.30988e-05,0.000117859,-0.0,9.91952e-12,1.05658e-05,1.05658e-05,4.55721e-22,1.97185e-07,1.97185e-07,-0.0
332.031,32.61919,7.70038,64.14499,0.0876781,0.0,0.0,0.0881464,0.000140788,0.0882872,-0.0200441,9.03348e-09,3.28041e-05,3.28132e-05,4.15895e-19,6.70196e-07,6.70196e-07,-0.0
340.625,17.87099,6.59795,54.2501,0.139944,0.0,0.0,0.137017,0.000854334,0.137871,-0.0013434,8.22601e-06,0.0001018,0.000110026,3.79536e-16,2.27785e-06,2.27785e-06,-0.0
349.22,9.14206,5.37947,43.01495,0.138065,0.0,0.0,0.136802,0.0050499,0.141852,-0.00729276,0.00709009,0.000315449,0.00740554,3.46335e-13,7.74164e-06,7.74164e-06,-0.0
357.814,8.52262,4.12568,30.64186,0.164941,0.121759,0.0,0.134617,0.0259007,0.160517,-0.0135547,0.129744,0.000973063,0.130718,3.15983e-10,2.63083e-05,2.63086e-05,-0.0
366.408,7.33906,2.55949,17.8699,0.19685,0.152034,0.0,0.117504,0.0801499,0.197654,-0.00154903,0.132246,0.00296036,0.135207,2.88171e-07,8.93686e-05,8.96568e-05,-0.0
375.002,6.15029,0.89639,8.95686,0.166989,0.135892,0.0,0.0544336,0.122044,0.176478,0.00486367,0.132158,0.00864727,0.140806,0.000261784,0.000303188,0.000564971,-0.0
383.597,4.92281,-0.21654,8.74531,0.018855,0.152726,0.0654719,0.00923783,0.013516,0.0227538,0.0231504,0.131388,0.0226725,0.154061,0.0661365,0.00102406,0.0671605,-0.0142702
392.191,3.50101,-0.25216,8.01165,0.00358668,0.163988,0.0905578,0.00107817,1.90999e-07,0.00107836,0.00139275,0.125162,0.0474599,0.172622,0.0904875,0.00340843,0.093896,-0.00490205
400.785,2.02611,-0.27683,7.16238,0.00240335,0.168052,0.096862,0.00011912,2.39462e-12,0.00011912,0.000627836,0.0891008,0.0732314,0.162332,0.08817,0.0108219,0.0989919,0.00125567
409.379,0.85676,-0.28368,6.24469,0.00548744,0.098679,0.121006,1.30788e-05,3.01956e-17,1.30788e-05,0.0011323,0.0257481,0.0732933,0.0990415,0.082795,0.0300555,0.11285,0.00325433
417.973,0.56234,-0.28414,5.17756,0.00109962,0.000455533,0.133493,1.435e-06,0.0,1.435e-06,0.000128857,0.00364081,0.000448121,0.00408893,0.0718641,0.0629979,0.134862,0.00863343
426.568,0.55742,-0.31109,3.98732,0.0119645,-0.0013771,0.144437,1.57435e-07,0.0,1.57435e-07,0.00162305,0.000436948,4.60386e-07,0.000437409,0.0540576,0.0929798,0.147037,-0.0104703
435.162,0.54617,-0.31749,2.72217,0.00143468,0.00160223,0.146463,1.72722e-08,0.0,1.72722e-08,-0.00187802,5.13149e-05,4.63258e-10,5.13154e-05,0.0334057,0.108027,0.141433,0.0040357
443.756,0.54312,-0.32525,1.51537,-0.000476482,0.000685922,0.112602,1.89494e-09,0.0,1.89494e-09,-2.74164e-06,6.01089e-06,4.63688e-13,6.01089e-06,0.0171032,0.111147,0.128251,0.00713923
452.35,0.53656,-0.34027,0.5783,0.00173314,-0.0021625,0.0872276,2.07893e-10,0.0,2.07893e-10,0.000219331,7.03885e-07,4.60166e-16,7.03885e-07,0.00771247,0.0757406,0.083453,0.014336
460.945,0.537,-0.34261,0.22485,0.00335109,-0.00411549,0.00686451,2.2808e-11,0.0,2.2808e-11,-0.00050172,8.24232e-08,0.0,8.24232e-08,0.00325432,0.00856625,0.0118206,0.00231669
469.5389,0.55579,-0.34352,0.22653,0.00597959,5.55112e-17,-0.000858706,2.50226e-12,0.0,2.50226e-12,-0.000504462,9.65151e-09,0.0,9.65151e-09,0.00133252,0.000384982,0.0017175,-0.00137356
478.133,0.54311,-0.349,0.22527,-0.00192162,0.00023038,0.00064403,2.74512e-13,0.0,2.74512e-13,-0.000789593,1.13016e-09,0.0,1.13016e-09,0.00053874,1.61116e-05,0.000554851,0.000457854
486.727,0.55142,-0.35358,0.24788,-0.00312068,0.00325158,-0.00109957,3.01327e-14,0.0,3.01327e-14,-0.000622352,1.32339e-10,0.0,1.32339e-10,0.000216685,6.72034e-07,0.000217357,-0.000468821
495.3216,0.53527,-0.35239,0.25189,-0.00364434,0.00796411,0.00175408,3.31764e-15,0.0,3.31764e-15,0.000104182,1.54965e-11,0.0,1.54965e-11,8.69698e-05,2.80256e-08,8.69979e-05,-1.91915e-05
498.186,0.54093,-0.36151,0.25039,0.00974951,-0.000911071,-0.0,1.58273e-15,0.0,1.58273e-15,-0.00512684,7.58137e-12,0.0,7.58137e-12,6.41384e-05,9.71863e-09,6.41482e-05,-0.0